!  Z    N    ETH    Sigma  alpha    S     Zeff
!           (ev) (10E-18cmÂ²)	       
				              
   6    1    490.   0.194  1.287    2.95   0.
   6    2    392.   0.526  1.325    2.76   0.
   6    3    347.   0.850  1.000    2.51   5.05
   6    4    317.   0.930  1.000    2.49   4.83
   6    5    296.   0.997  1.000    2.48   4.67
   6    6    280.   1.060  1.000    2.47   4.53
				       
   7    1    666.   0.142  1.287    2.95   0.
   7    2    552.   0.371  1.314    2.79   0.
   7    3    496.   0.595  1.000    2.57   6.04
   7    4    459.   0.643  1.000    2.55   5.81
   7    5    432.   0.683  1.000    2.54   5.64
   7    6    412.   0.717  1.000    2.54   5.50
   7    7    395.   0.747  1.000    2.53   5.39
				       
   8    1    870.   0.109  1.287    2.95   0.
   8    2    739.   0.275  1.308    2.81   0.
   8    3    672.   0.439  1.000    2.62   7.03
   8    4    627.   0.470  1.000    2.61   6.79
   8    5    595.   0.496  1.000    2.60   6.62
   8    6    570.   0.518  1.000    2.59   6.47
   8    7    550.   0.537  1.000    2.59   6.36
   8    8    533.   0.554  1.000    2.58   6.26
   
  10    1   1361.   0.075  1.250    2.90   0.        !energy modified not to overlap with MgIII
  10    2   1195.   0.180  1.280    2.95   0.  
  10    3   1100.   0.267  1.000    2.72   9.01
  10    4   1050.   0.282  1.000    2.71   8.77
  10    5   1000.   0.295  1.000    2.70   8.58
  10    6    968.   0.305  1.000    2.69   8.43
  10    7    940.   0.314  1.000    2.69   8.31
  10    8    916.   0.322  1.000    2.68   8.21
  10    9    896.   0.329  1.000    2.68   8.12
  10   10    878.   0.336  1.000    2.67   8.04
				       
  12    1   1960.   0.055  1.220    2.90   0.
  12    2   1761.   0.130  1.250    2.90   0.
  12    3   1650.   0.179  1.000    2.79   11.0
  12    4   1570.   0.188  1.000    2.78   10.8
  12    5   1520.   0.194  1.000    2.78   10.6
  12    6   1470.   0.200  1.000    2.77   10.4
  12    7   1440.   0.205  1.000    2.77   10.3
  12    8   1410.   0.210  1.000    2.76   10.2
  12    9   1380.   0.213  1.000    2.76   10.1
  12   10   1360.   0.217  1.000    2.76   10.0
  12   11   1340.   0.220  1.000    2.75   9.92
  12   12   1320.   0.223  1.000    2.75   9.86
				       
  14    1   2670.   0.044  1.200    2.90   0.
  14    2   2430.   0.100  1.200    3.00   0.
  14    3   2300.   0.128  1.000    2.86   13.0
  14    4   2210.   0.134  1.000    2.85   12.7
  14    5   2140.   0.138  1.000    2.85   12.6
  14    6   2090.   0.141  1.000    2.84   12.4
  14    7   2050.   0.144  1.000    2.84   12.3
  14    8   2010.   0.147  1.000    2.83   12.2
  14    9   1980.   0.149  1.000    2.83   12.1
  14   10   1950.   0.151  1.000    2.83   12.0
  14   11   1930.   0.153  1.000    2.82   11.9
  14   12   1910.   0.155  1.000    2.82   11.8
  14   13   1880.   0.157  1.000    2.82   11.8
  14   14   1870.   0.158  1.000    2.82   11.7
				       
  16    1   3480.   0.035  1.190    2.90   0.
  16    2   3210.   0.080  1.200    3.00   0.
  16    3   3060.   0.096  1.000    2.92   15.0
  16    4   2960.   0.099  1.000    2.91   14.8
  16    5   2880.   0.102  1.000    2.91   14.6
  16    6   2820.   0.105  1.000    2.90   14.4
  16    7   2770.   0.106  1.000    2.90   14.3
  16    8   2730.   0.108  1.000    2.89   14.2
  16    9   2690.   0.110  1.000    2.89   14.1
  16   10   2660.   0.111  1.000    2.89   14.0
  16   11   2630.   0.112  1.000    2.89   13.9
  16   12   2600.   0.113  1.000    2.88   13.8
  16   13   2580.   0.114  1.000    2.88   13.8
  16   14   2560.   0.115  1.000    2.88   13.7
  16   15   2540.   0.116  1.000    2.88   13.7
  16   16   2520.   0.117  1.000    2.88   13.6
